accel_x,accel_y,accel_z
-0.2685759414699024,1.2909785180228763,-1.138467413481975
-0.7269916079360509,1.2379036289300203,-0.9149149426935734
-1.7892005799110786,-0.8809879883327438,0.04320582806609033
-1.3306939735441787,-1.799710215302374,0.3890527358309413
0.2701445292525658,-0.5608192881855519,-0.4180978708109566
2.2828905470100334,0.6246582822773797,-0.7016610150001058
2.8127312351978517,0.4507272440561653,0.320734413677284
2.1052407354382763,0.15003676846075395,0.3453550218364864
1.1783241546568841,0.16476395318673884,0.15593862243243883
0.3395173936116101,0.5399429896913874,0.031595424350666826
0.056468315084010075,0.8657929770437142,0.19009210487678152
-0.16435786280429365,0.8554268323036427,0.40803958163968124
-0.24889901169125445,0.6205352681228485,0.574575568154177
-0.3444479451377704,0.4580643756050835,0.4365734757802592
-0.2210405211977384,0.3863421389552701,0.5004588926122204
-0.09069485195652476,0.41322603969777555,0.59809996208789
-0.27491416317937956,0.6658509393731563,0.7407162144163492
-0.372449115575772,0.6486250605550642,1.1267859648256928
-0.13120925970636999,0.631742597795251,1.421557079987152
0.04024734986326126,0.5432243398115104,1.4039790930814744
0.22664553758278363,0.23003441425682558,1.2807603105274308
-0.378525069228411,-0.13321410249247537,0.33710559363817105
-0.9945295368032745,-0.4836869073849241,-0.3441312603419844
-1.631966282893685,-0.9357604494265049,1.3364042628523534
-1.721804947605449,-0.7318695171372382,2.0386206432685325
-1.7183422160587467,-1.2929564964413323,1.1286502312703441
-0.7823961510668269,-2.1772858684098844,-0.6417718057160802
0.3322365580086399,-1.433378441309248,0.42057154646967165
0.6851439489556672,-0.16865802682891923,1.3107428358005337
0.15470422553191926,-0.3525273642972129,-0.3005080343253165
-0.1981903941901524,0.015824201368659994,-2.156273109749529
0.1583069684906059,0.54849642814529,-1.5487992659976664
0.168883927871923,0.6305388503901478,-0.6689006385427544
0.6154795373266809,-0.44335125833767086,0.0722132562640615
0.6620927375042103,-0.9467310613245296,0.07027492586099808
-0.22397126886423377,-0.1448211978033118,-0.5987229353756898
-1.3959929530701094,0.5887150445271747,-0.42034383783366713
-1.8486222710182256,0.6458047680782684,-0.280088795216507
-1.4938470667694577,0.36984245615363615,-0.5211698163113381
-0.7063861589002479,0.41056208326236343,-0.4195343893516331
-0.25017707940469586,0.6779510282545127,-0.317450108222127
-0.15172956444961805,0.7121834407908649,-0.26131414831281646
-0.17435670599694447,0.522861154656645,-0.018296444564235067
-0.10388661400492276,0.24549412429503084,0.25754157707462944
0.171887754399422,0.14359630655944886,0.40164773445824653
0.38309930828199673,0.2172667849341342,0.46778302487510953
0.3217210768598023,0.31814158934322895,0.6496444414418945
0.482630173832659,0.5205590474486284,0.7218257626818337
0.0877908585159943,0.5817230653588196,0.9371899745496619
-0.3956063775180604,0.22906459431826284,1.234073891114408
-1.1965851843925477,0.06008955105176328,1.8591960442831794
-0.32371760359932444,0.04624766137748881,1.0388759231810767
1.2816254571126142,0.11332271244249355,-0.09989323311491069
2.511797695281149,-0.008827147983114717,0.6954821673858204
3.1454044930512373,-0.129659723993368,1.751629390951822
2.5149861222099577,-0.7810338436227392,1.3831150666957523
0.953616937695776,-1.7289489910398526,-0.012987846836227243
0.9120288607476174,-1.6325274584957483,-0.5780968868151571
0.9903378033059717,-1.0936513759933741,0.20910595398450568
-0.2199932722742559,-0.653091165718485,0.8142384521178445
-0.43175406402461597,0.011189991761964939,-1.978026022407154
-1.085908426694962,0.8332201494604471,-2.3454948042255217
-1.7034185967898274,0.6800111119850689,-1.3717710133894967
-2.2068936967109813,-0.8743416127652412,-0.547526078953794
-1.3855073144850787,-1.8458537877629875,-0.13545411462085763
0.45544291417485266,-0.6033885460427963,-0.6757438239738961
2.5483441418787516,0.7198062401619187,-1.2814594514559636
3.108009851728065,0.7902820658135613,-0.5878243280273447
2.3760342720028063,0.2630506655757425,-0.5073824935279637
1.1573416667713692,0.312887725534192,-0.38169053263419433
0.37183672169697235,0.5633685556943543,-0.2766322667734002
-0.028881793721615173,0.9802465484135326,-0.22329700489643556
0.03246986233283954,1.03214754873186,-0.040018543006573336
0.12560823534295856,0.792809990350254,0.09079178702619703
0.04519041640761261,0.41792781507251775,0.09244929987195441
-0.03957124323145632,0.3747213932768721,0.3223979969462163
0.0026109726569723815,0.36094686056026054,0.5141107629089173
-0.21703118404093297,0.41505613345854514,0.851848906248779
-0.43696082218248505,0.14441158160404477,0.9794498643947906
0.0012846920419772032,-0.09004671664623402,0.9391054794593205
0.582172907903991,-0.13024354678629166,1.0994574517705054
0.33260245498272356,0.0640643846007057,1.4188090088064629
-1.7843161048330283,-0.07659156502128187,0.586300206721647
-3.2110524626380386,-0.17569033153933314,0.4927042920237509
-2.931185317491953,-0.0604890079831796,1.897926430859952
-2.07808232519251,-0.20173568614810933,1.9071719923826818
-2.105337290178656,-1.6860729714598073,-0.1389073481135247
-0.5019003495781588,-2.718727172175448,-1.2481826995990368
0.5017878291467646,-1.2655592274921048,0.7151562619031799
0.18959304190619816,-0.08330527043292153,0.11766860043330261
-0.36747515570492834,0.11238132198675184,-2.168876235996837
0.302228546840064,0.8280913107345008,-2.364237084358872
1.1369868129258964,1.0226193428999515,-1.2300282898329915
1.3365807961608898,-0.7865570298907009,-0.18877133495785123
0.7365561747978386,-1.7988153477279751,-0.1168588924525057
-0.5088251997468045,-0.8355068727804801,-0.5380489229737151
-1.7978662818300526,0.07675738899549164,-0.1995032225699871
-2.0397398431343934,0.44594008626666515,0.1565922940795728
-1.6076929712601944,0.4255580970572065,-0.06168222630672652
-1.0604486720722588,0.7617196970754748,-0.13064501580655427
-0.46842759897640374,0.9941391324766867,-0.015002997564756948
-0.22263549317559508,1.0834192123398718,0.011453799261944753
0.13403761242725856,0.8753361239408574,0.12399388306569817
0.14689555398298096,0.6015895241321424,0.4154653544883704
0.24497959783465736,0.38968447395747324,0.5989102672720212
-0.007512977436774504,0.34085784648582035,0.5144900002191944
-0.2927176656422146,0.48152772946405126,0.5081744484558873
-0.39281821602345,0.6150789309111053,0.727944607960596
-0.3529503777949416,0.5624464137402779,0.9225191557047543
-0.43093516656452935,0.2890502553997908,1.167287929589426
-0.2728459926342535,0.05919745527222407,1.2046081750667696
-0.10126273556105492,0.12272218798806409,1.2082120998469088
1.1570289380129661,0.16571995393254246,0.051095058061364544
1.5803322125836865,0.04077720981674791,0.03540233491119827
1.5406920523160392,-0.42940024301418517,1.4276591692302492
1.277189054438224,-0.3003191559002348,1.60354605539441
0.8468504041229759,-0.7922607255321306,0.85851475944906
0.4316619858118455,-1.5299366791359448,0.8577901131674849
0.6754542429750023,-1.4773317794861032,0.8846710494438312
0.6558240766131683,-1.070276791158592,0.6471831668019687
0.3712014532022986,-1.0031203515798368,0.18987126078735317
0.5829161998230439,-0.5707888300354742,-1.1923612878237215
0.5944183540003474,0.7983707521512238,-2.2137663263162506
0.3879846485921092,1.2337200873932117,-1.8552487475161785
-0.11061367878743997,0.0844810626523103,-0.7804201131646235
-0.6063266551694232,-1.3835558278440911,0.04466233832877342
-0.10747974958857001,-0.987868101299155,-0.3420536456155266
1.1394032112456012,0.40011897437844546,-1.1739848847713419
-1.3855073144850787,-1.8458537877629875,-0.13545411462085763
0.45544291417485266,-0.6033885460427963,-0.6757438239738961
2.5483441418787516,0.7198062401619187,-1.2814594514559636
3.108009851728065,0.7902820658135613,-0.5878243280273447
2.3760342720028063,0.2630506655757425,-0.5073824935279637
1.1573416667713692,0.312887725534192,-0.38169053263419433
0.37183672169697235,0.5633685556943543,-0.2766322667734002
-0.028881793721615173,0.9802465484135326,-0.22329700489643556
0.03246986233283954,1.03214754873186,-0.040018543006573336
0.12560823534295856,0.792809990350254,0.09079178702619703
0.04519041640761261,0.41792781507251775,0.09244929987195441
-0.03957124323145632,0.3747213932768721,0.3223979969462163
0.0026109726569723815,0.36094686056026054,0.5141107629089173
-0.21703118404093297,0.41505613345854514,0.851848906248779
-0.43696082218248505,0.14441158160404477,0.9794498643947906
0.0012846920419772032,-0.09004671664623402,0.9391054794593205
0.582172907903991,-0.13024354678629166,1.0994574517705054
0.33260245498272356,0.0640643846007057,1.4188090088064629
-1.7843161048330283,-0.07659156502128187,0.586300206721647
-3.2110524626380386,-0.17569033153933314,0.4927042920237509
-2.931185317491953,-0.0604890079831796,1.897926430859952
-2.07808232519251,-0.20173568614810933,1.9071719923826818
-2.105337290178656,-1.6860729714598073,-0.1389073481135247
-0.5019003495781588,-2.718727172175448,-1.2481826995990368
0.5017878291467646,-1.2655592274921048,0.7151562619031799
0.18959304190619816,-0.08330527043292153,0.11766860043330261
-0.36747515570492834,0.11238132198675184,-2.168876235996837
0.302228546840064,0.8280913107345008,-2.364237084358872
1.1369868129258964,1.0226193428999515,-1.2300282898329915
1.3365807961608898,-0.7865570298907009,-0.18877133495785123
0.7365561747978386,-1.7988153477279751,-0.1168588924525057
-0.5088251997468045,-0.8355068727804801,-0.5380489229737151
-1.7978662818300526,0.07675738899549164,-0.1995032225699871
-2.0397398431343934,0.44594008626666515,0.1565922940795728
-1.6076929712601944,0.4255580970572065,-0.06168222630672652
-1.0604486720722588,0.7617196970754748,-0.13064501580655427
-0.46842759897640374,0.9941391324766867,-0.015002997564756948
-0.22263549317559508,1.0834192123398718,0.011453799261944753
0.13403761242725856,0.8753361239408574,0.12399388306569817
0.14689555398298096,0.6015895241321424,0.4154653544883704
0.24497959783465736,0.38968447395747324,0.5989102672720212
-0.007512977436774504,0.34085784648582035,0.5144900002191944
-0.2927176656422146,0.48152772946405126,0.5081744484558873
-0.39281821602345,0.6150789309111053,0.727944607960596
-0.3529503777949416,0.5624464137402779,0.9225191557047543
-0.43093516656452935,0.2890502553997908,1.167287929589426
-0.2728459926342535,0.05919745527222407,1.2046081750667696
-0.10126273556105492,0.12272218798806409,1.2082120998469088
1.1570289380129661,0.16571995393254246,0.051095058061364544
1.5803322125836865,0.04077720981674791,0.03540233491119827
1.5406920523160392,-0.42940024301418517,1.4276591692302492
1.277189054438224,-0.3003191559002348,1.60354605539441
0.8468504041229759,-0.7922607255321306,0.85851475944906
0.4316619858118455,-1.5299366791359448,0.8577901131674849
0.6754542429750023,-1.4773317794861032,0.8846710494438312
0.6558240766131683,-1.070276791158592,0.6471831668019687
0.3712014532022986,-1.0031203515798368,0.18987126078735317
0.5829161998230439,-0.5707888300354742,-1.1923612878237215
0.5944183540003474,0.7983707521512238,-2.2137663263162506
0.3879846485921092,1.2337200873932117,-1.8552487475161785
-0.11061367878743997,0.0844810626523103,-0.7804201131646235
-0.6063266551694232,-1.3835558278440911,0.04466233832877342
-0.10747974958857001,-0.987868101299155,-0.3420536456155266
1.1394032112456012,0.40011897437844546,-1.1739848847713419
1.988978809844268,0.9076725741807381,-0.29526999823987127
1.9935944516366795,0.4761556892481999,-0.21628390555353066
1.4276553921228643,0.031680735957591855,-0.4415795053509692
0.9695574342535422,0.2659089327102608,-0.3153293704079421
0.4801529916047779,0.43442449075866346,-0.1121345291645131
0.5545484251216123,0.6265890347593226,0.1525416791159599
0.48931524386417313,0.6488989980697385,0.1229350705344862
0.34688230835259615,0.571371467992506,0.13981010167571903
0.20649446769279994,0.5628599752870909,0.1444049659770889
0.008934976878494776,0.734276872273839,0.498803004835068
-0.544469588168457,0.9110059675286337,0.6894801877691458
-0.6890572571475725,0.5903326564739199,1.0314906696938906
-0.6451369315205812,0.34630449092065724,0.9603506399658738
-0.22145993607624262,0.3370673410251082,0.9465040812384867
0.1322432264453183,0.25015984501274674,0.7814782169773374
0.26596052819563004,-0.025656994197044286,0.6885898517724565
-0.882698756261036,-0.6057793086571958,0.8804691285723097
-2.0234917119047844,-0.6485174597269152,1.0792794329770476
-2.0424260067338946,-0.3074043046639126,1.8304860818529187
-1.9672498667655365,-0.27851656560469007,1.6405363670216386
-1.855548258964363,-1.5899889000525123,-0.3168456026464785
-0.05134954145705245,-2.430066219270226,-0.7804710527673115
0.396840196672507,-1.2295907790711442,0.8413685365770437
0.30818419807038017,-0.532532844769309,0.3283437888148987
-0.31495026887698163,-0.3819955948436223,-1.3119666649177535
-0.4295573390579955,0.37652837979488674,-1.9145888730464622
0.22744739531662067,1.4760155076453754,-1.6190650688847457
0.9734613643791973,0.9538170360172097,-0.6601872736364185
1.2534400019739245,-0.7743564282897119,-0.10868616376323707
0.8319008347832009,-1.2577795079087202,-0.3204860382621975
-0.5867199070535427,-0.4516658506441887,-0.5630195236963244
-1.5864251204105069,0.12031847355442338,-0.30625594791489236
-1.701923068019567,0.061647355200191274,0.0010056173588932342
-1.1943418285849963,0.22107686825809836,-0.4222669355299159
-0.7510195529031497,0.5714506815075042,-0.45380142912919064
-0.1586830853360692,0.8047751138524495,-0.4985901066299291
0.26948450667006785,0.9595228737720328,-0.2752847659233944
0.7775756616897714,0.7927451711846489,-0.0817841074632051
0.7909197545090753,0.5125322890090093,0.10496892007904818
0.560764497759154,0.3109208982981898,0.2023601607600167
0.27688138732655926,0.22648639046801966,0.3645202843327454
0.07838342582733385,0.43528829065882185,0.5018820902576089
0.04574219655291324,0.5314232015515998,0.5676736756997514
-0.01867696204438913,0.5517660144677718,0.6200437188157585
-0.19957143622179213,0.44812427495999074,0.8921221805214129
-0.5134829788377718,0.24054985228220993,1.0968779976134853
-0.5619763317546719,-0.10682487398402069,1.4883652705852564
-0.010867328364990906,-0.3244243061069779,1.0333405653703578
0.7085616894497626,-0.3376884219544176,0.3828975811416551
0.9028098453500313,-0.24514779930643968,0.5885240704952405
1.1154107561000999,0.019296786021101832,1.0716373252841467
1.3819497101257925,-0.10375398048772382,1.1656403430110194
1.3158775968783778,-1.211245939171882,0.15336193764901956
0.9029564851247545,-1.562580273387745,-0.1927595131751401
1.108004906758154,-1.219557361974532,0.014316124547163273
0.35296124595769385,-0.5580108835980823,0.5377861892405834
0.12510146858912416,-0.31762173682703215,-0.09801370767442974
0.5114226907856086,0.1237780657618208,-1.6728471910918747
0.3340911863941253,0.7799312816922755,-1.7112998380066524
-0.34755330264897566,0.5618085710866734,-1.063147994949191
-0.723176596355253,-0.7275989347902733,-0.7110163433183947
-0.713120102341758,-1.5165431990279916,-0.5597654221984414
0.5720857200145079,-0.5837756302164802,-0.9163917403305708
2.006438916332022,0.5782451083637393,-1.2573004987535963
1.988978809844268,0.9076725741807381,-0.29526999823987127
1.9935944516366795,0.4761556892481999,-0.21628390555353066
1.4276553921228643,0.031680735957591855,-0.4415795053509692
0.9695574342535422,0.2659089327102608,-0.3153293704079421
0.4801529916047779,0.43442449075866346,-0.1121345291645131
0.5545484251216123,0.6265890347593226,0.1525416791159599
0.48931524386417313,0.6488989980697385,0.1229350705344862
0.34688230835259615,0.571371467992506,0.13981010167571903
0.20649446769279994,0.5628599752870909,0.1444049659770889
0.008934976878494776,0.734276872273839,0.498803004835068
-0.544469588168457,0.9110059675286337,0.6894801877691458
-0.6890572571475725,0.5903326564739199,1.0314906696938906
-0.6451369315205812,0.34630449092065724,0.9603506399658738
-0.22145993607624262,0.3370673410251082,0.9465040812384867
0.1322432264453183,0.25015984501274674,0.7814782169773374
0.26596052819563004,-0.025656994197044286,0.6885898517724565
-0.882698756261036,-0.6057793086571958,0.8804691285723097
-2.0234917119047844,-0.6485174597269152,1.0792794329770476
-2.0424260067338946,-0.3074043046639126,1.8304860818529187
-1.9672498667655365,-0.27851656560469007,1.6405363670216386
-1.855548258964363,-1.5899889000525123,-0.3168456026464785
-0.05134954145705245,-2.430066219270226,-0.7804710527673115
0.396840196672507,-1.2295907790711442,0.8413685365770437
0.30818419807038017,-0.532532844769309,0.3283437888148987
-0.31495026887698163,-0.3819955948436223,-1.3119666649177535
-0.4295573390579955,0.37652837979488674,-1.9145888730464622
0.22744739531662067,1.4760155076453754,-1.6190650688847457
0.9734613643791973,0.9538170360172097,-0.6601872736364185
1.2534400019739245,-0.7743564282897119,-0.10868616376323707
0.8319008347832009,-1.2577795079087202,-0.3204860382621975
-0.5867199070535427,-0.4516658506441887,-0.5630195236963244
-1.5864251204105069,0.12031847355442338,-0.30625594791489236
-1.701923068019567,0.061647355200191274,0.0010056173588932342
-1.1943418285849963,0.22107686825809836,-0.4222669355299159
-0.7510195529031497,0.5714506815075042,-0.45380142912919064
-0.1586830853360692,0.8047751138524495,-0.4985901066299291
0.26948450667006785,0.9595228737720328,-0.2752847659233944
0.7775756616897714,0.7927451711846489,-0.0817841074632051
0.7909197545090753,0.5125322890090093,0.10496892007904818
0.560764497759154,0.3109208982981898,0.2023601607600167
0.27688138732655926,0.22648639046801966,0.3645202843327454
0.07838342582733385,0.43528829065882185,0.5018820902576089
0.04574219655291324,0.5314232015515998,0.5676736756997514
-0.01867696204438913,0.5517660144677718,0.6200437188157585
-0.19957143622179213,0.44812427495999074,0.8921221805214129
-0.5134829788377718,0.24054985228220993,1.0968779976134853
-0.5619763317546719,-0.10682487398402069,1.4883652705852564
-0.010867328364990906,-0.3244243061069779,1.0333405653703578
0.7085616894497626,-0.3376884219544176,0.3828975811416551
0.9028098453500313,-0.24514779930643968,0.5885240704952405
1.1154107561000999,0.019296786021101832,1.0716373252841467
1.3819497101257925,-0.10375398048772382,1.1656403430110194
1.3158775968783778,-1.211245939171882,0.15336193764901956
0.9029564851247545,-1.562580273387745,-0.1927595131751401
1.108004906758154,-1.219557361974532,0.014316124547163273
0.35296124595769385,-0.5580108835980823,0.5377861892405834
0.12510146858912416,-0.31762173682703215,-0.09801370767442974
0.5114226907856086,0.1237780657618208,-1.6728471910918747
0.3340911863941253,0.7799312816922755,-1.7112998380066524
-0.34755330264897566,0.5618085710866734,-1.063147994949191
-0.723176596355253,-0.7275989347902733,-0.7110163433183947
-0.713120102341758,-1.5165431990279916,-0.5597654221984414
0.5720857200145079,-0.5837756302164802,-0.9163917403305708
2.006438916332022,0.5782451083637393,-1.2573004987535963
2.383192464994121,0.5821247690336563,-0.31907781422529113
1.8481393540913271,0.17272060614426588,-0.4043676172143203
0.9977397669324833,0.09311493579404113,-0.6199989924400724
0.2786584781451689,0.37931600800868787,-0.5127252620646487
-0.11678095790637548,0.6651779675801707,-0.31756945741014
-0.12631204301517385,0.6559861591251243,0.0057168286742895
-0.07101832058498962,0.5022347635819958,0.08641474733859332
0.13915359208429762,0.3589382226299649,-0.06929302639275942
0.21311781623531917,0.5266885450454097,-0.14282665658236582
0.13469491431421302,0.8029844789353529,0.0013850286875033615
-0.14327654160230138,0.8909281260850538,0.21334322507569314
-0.4212129514749993,0.5924875612421094,0.5346516725109689
-0.41532171977985655,0.20234129835196898,0.8188730100330521
-0.46081141860810987,0.0621464157049749,0.8498049028572792
-0.6094198255046539,0.025448068293161926,1.0319817170537724
-0.9776587310024945,-0.1877416018359531,0.9077100887910498
-1.0305922066372448,-0.3301199899485128,0.7761500424856309
-1.4666885483510845,-0.2564469036638496,0.5033505353516804
-1.3861799346784731,-0.3484486842511783,0.9887590179986812
-1.3420336479859616,-0.7041069452630229,1.1539755727390464
-1.252104451618106,-1.5572250986097946,-0.3894055038250029
0.03507837291161157,-1.575076768673554,0.2721036463002897
0.6314739750179146,-0.42268124853962363,1.534564756822392
0.8877359067839474,-0.4388809541135404,0.41174472343296203
-0.18112454423023663,-0.20332925147896663,-1.3813466302621387
-0.667387786432049,0.05456848576254879,-1.6348072892982566
-0.6547224774489969,0.5863993761164815,-1.2407552091110294
0.4315827004061075,0.5507644792897279,-0.7296362359836576
1.083599689024816,-0.5062958698075082,-0.15780538375976813
1.0947374039452535,-0.9490042001783959,-0.36455569779424163
0.0459985448359533,-0.46250108718140504,-0.44251474196232327
-0.8756964750765731,0.15632445675723242,-0.4696063714127745
-1.1739436210577612,0.15232264516590804,-0.39797206415817377
-1.0538032568654454,0.21344626075788103,-0.7357122359293329
-0.6860057172909586,0.5075555481320139,-0.423036712299676
-0.07937992480858377,0.8113075975047581,-0.2608713858627222
0.30183737919045434,0.8886919646829256,-0.09730727123290175
0.40211843061281066,0.6487097703904118,-0.12906567863099425
0.09559380002015183,0.2766999379005567,0.12489384024479806
-0.124788805947094,0.13998178499857108,0.04172164630249388
-0.11181095172467012,0.29545420641961273,0.24515901352671374
-0.020995198042208327,0.6042232266140399,0.3932637527544872
0.022423978828787175,0.7171569584714088,0.6095535609847322
0.09388990898447806,0.6713869798227958,0.8154231994269989
-0.16515314947588702,0.4887705387368517,1.126669008945629
-0.6148977177883341,0.21362525790746073,1.2212811369475547
-0.9284748518331216,-0.012136753577330477,1.281072590003897
-0.3260944606278497,0.07095222674124774,0.17145531515116033
0.26285248467031364,-0.23341329289041166,0.4001146851406288
1.037840454572778,-0.5868144773703974,1.0121047247907433
1.9532052988447537,-0.5161374308149683,1.4995964660218635
2.2640784886017893,-1.0880010588851117,0.8128166691490601
1.4889916550313547,-1.4064420154823682,0.35830651903963207
1.1845711744245275,-0.7555079908126945,0.6959132745430421
1.46613531737926,-0.7080570159695031,0.5664302286397853
0.5684338718186716,-0.7857125033176785,0.8709723287304897
0.42594624459747565,-0.7196228730053659,-0.6015396298043405
0.39365778812487445,-0.2893643899512855,-2.0788769436871504
-0.3097936461345639,0.6574904499422555,-1.759087981505874
-0.9033374999077342,0.8509933731167465,-1.2671743632232662
-1.4730542822180774,-0.11483975874426774,-0.8665965083058051
-1.0641250040533823,-1.028064823614494,-0.5150541794165201
0.2461196843947462,-0.5382682807074899,-0.441448304576065
1.6331057769811115,0.20405179446932845,-0.8182791113111259
2.383192464994121,0.5821247690336563,-0.31907781422529113
1.8481393540913271,0.17272060614426588,-0.4043676172143203
0.9977397669324833,0.09311493579404113,-0.6199989924400724
0.2786584781451689,0.37931600800868787,-0.5127252620646487
-0.11678095790637548,0.6651779675801707,-0.31756945741014
-0.12631204301517385,0.6559861591251243,0.0057168286742895
-0.07101832058498962,0.5022347635819958,0.08641474733859332
0.13915359208429762,0.3589382226299649,-0.06929302639275942
0.21311781623531917,0.5266885450454097,-0.14282665658236582
0.13469491431421302,0.8029844789353529,0.0013850286875033615
-0.14327654160230138,0.8909281260850538,0.21334322507569314
-0.4212129514749993,0.5924875612421094,0.5346516725109689
-0.41532171977985655,0.20234129835196898,0.8188730100330521
-0.46081141860810987,0.0621464157049749,0.8498049028572792
-0.6094198255046539,0.025448068293161926,1.0319817170537724
-0.9776587310024945,-0.1877416018359531,0.9077100887910498
-1.0305922066372448,-0.3301199899485128,0.7761500424856309
-1.4666885483510845,-0.2564469036638496,0.5033505353516804
-1.3861799346784731,-0.3484486842511783,0.9887590179986812
-1.3420336479859616,-0.7041069452630229,1.1539755727390464
-1.252104451618106,-1.5572250986097946,-0.3894055038250029
0.03507837291161157,-1.575076768673554,0.2721036463002897
0.6314739750179146,-0.42268124853962363,1.534564756822392
0.8877359067839474,-0.4388809541135404,0.41174472343296203
-0.18112454423023663,-0.20332925147896663,-1.3813466302621387
-0.667387786432049,0.05456848576254879,-1.6348072892982566
-0.6547224774489969,0.5863993761164815,-1.2407552091110294
0.4315827004061075,0.5507644792897279,-0.7296362359836576
1.083599689024816,-0.5062958698075082,-0.15780538375976813
1.0947374039452535,-0.9490042001783959,-0.36455569779424163
0.0459985448359533,-0.46250108718140504,-0.44251474196232327
-0.8756964750765731,0.15632445675723242,-0.4696063714127745
-1.1739436210577612,0.15232264516590804,-0.39797206415817377
-1.0538032568654454,0.21344626075788103,-0.7357122359293329
-0.6860057172909586,0.5075555481320139,-0.423036712299676
-0.07937992480858377,0.8113075975047581,-0.2608713858627222
0.30183737919045434,0.8886919646829256,-0.09730727123290175
0.40211843061281066,0.6487097703904118,-0.12906567863099425
0.09559380002015183,0.2766999379005567,0.12489384024479806
-0.124788805947094,0.13998178499857108,0.04172164630249388
-0.11181095172467012,0.29545420641961273,0.24515901352671374
-0.020995198042208327,0.6042232266140399,0.3932637527544872
0.022423978828787175,0.7171569584714088,0.6095535609847322
0.09388990898447806,0.6713869798227958,0.8154231994269989
-0.16515314947588702,0.4887705387368517,1.126669008945629
-0.6148977177883341,0.21362525790746073,1.2212811369475547
-0.9284748518331216,-0.012136753577330477,1.281072590003897
-0.3260944606278497,0.07095222674124774,0.17145531515116033
0.26285248467031364,-0.23341329289041166,0.4001146851406288
1.037840454572778,-0.5868144773703974,1.0121047247907433
1.9532052988447537,-0.5161374308149683,1.4995964660218635
2.2640784886017893,-1.0880010588851117,0.8128166691490601
1.4889916550313547,-1.4064420154823682,0.35830651903963207
1.1845711744245275,-0.7555079908126945,0.6959132745430421
1.46613531737926,-0.7080570159695031,0.5664302286397853
0.5684338718186716,-0.7857125033176785,0.8709723287304897
0.42594624459747565,-0.7196228730053659,-0.6015396298043405
0.39365778812487445,-0.2893643899512855,-2.0788769436871504
-0.3097936461345639,0.6574904499422555,-1.759087981505874
-0.9033374999077342,0.8509933731167465,-1.2671743632232662
-1.4730542822180774,-0.11483975874426774,-0.8665965083058051
-1.0641250040533823,-1.028064823614494,-0.5150541794165201
0.2461196843947462,-0.5382682807074899,-0.441448304576065
1.6331057769811115,0.20405179446932845,-0.8182791113111259
2.2909146499515125,0.18533510949740342,-0.4089638154830933
1.777270182616649,0.1124014807737325,-0.38855649769109174
0.9746103284676586,0.32958901748319663,-0.5596583067594294
0.18156586364517865,0.6316882860605573,-0.3829313851101433
-0.5417806187912764,0.8336745856660939,-0.08811265096779508
-0.4921492296787526,0.7745650667412572,0.1403159910225835
-0.23645181856762787,0.6192800512141563,0.2690062927137556
0.23299567321298845,0.3745158684428563,0.27546543608510093
0.3324529130417902,0.3375063287354967,0.24905514338621154
0.2897420485521288,0.4946982264919034,0.38230565379372117
0.1312348393953841,0.6579257338837452,0.47027262551568677
-0.19835751437255772,0.6860482223085184,0.7044626350532752
-0.6503573491970226,0.5195591456236812,1.026012595537866
-0.6829634727615571,0.5017640326911683,1.0488767873025213
-0.6289867345570197,0.5062829433340964,0.9040140481961497
-0.10437102481589416,0.22956627934765836,0.5990188668744827
-0.5485782462681331,-0.5366184656057313,0.7495234296943961
-1.6400421278007735,-1.0083090444371932,0.4752444762530004
-1.9842620135428641,-0.679504225685542,1.402616362354052
-1.511060214607939,0.06912513072014649,2.036357502904296
-1.8808752416505994,-0.2765521861572152,0.9539928561550235
-1.6114091801116415,-1.8714191080012148,-0.7153739590651521
0.12672666448183825,-1.977157317029846,-0.05718010887682178
0.43118328043411347,-0.8690245389505814,0.8820777416738493
0.2613169874113446,-0.7668495587387696,-0.14022204050493406
-0.2684662051670751,-0.48523873541421697,-1.6819503445365678
-0.11323934553745854,0.6628861051402264,-1.985935931420763
0.35346964128367536,1.0487028003805352,-1.214301902884644
0.4352335789431448,0.01528259398936077,-0.5028904858127465
0.5286288728274376,-1.2501212318475063,-0.3305262236869711
0.24678132380982737,-0.9403281126658569,-0.5443207474940363
-0.8009773887905066,0.10091252233692234,-0.6356209640069176
-1.1562022180209477,0.49849352017598,-0.5361868916872147
-1.3679667112832556,0.3566037294618239,-0.5775064263211522
-0.898358652080558,0.4231810879584069,-0.6871935547037853
-0.3931099661795313,0.6511668747162596,-0.5060131004605065
0.16206113442529976,0.8976765279250245,-0.42098518775443594
0.3766273899057438,0.967003014085384,-0.3149375597341495
0.34853490817116556,0.6866593809770758,-0.17915324534821153
0.13124320136374754,0.2391532075836343,-0.03381575435923243
0.120277748429096,0.09457969902140473,0.1742808379035322
-0.08621084575984062,0.09033484511427023,0.3692437795274198
-0.15197200669704705,0.22111688264745583,0.5722882382137843
-0.11881674594724435,0.3270716848390546,0.7934087935520772
-0.36654996818672586,0.4585016424137642,0.9629930250429977
-0.7737200494675218,0.5502322564031799,1.152830965528134
-0.9130683852495199,0.43741929394851486,1.4135518504826328
-0.7642415356850406,0.3013588880123029,1.3367194601515326
0.6899918980308971,0.23602231855508943,-0.06300130011022517
1.3250693873212471,-0.1806191349346809,0.3011047918933857
1.3498581227946826,-0.5443603417432655,1.3242604704937433
0.935536494907274,-0.1303431056865984,1.3515127512065424
0.5983503758510197,-0.10588104664516018,1.2497445322029748
0.9468778514318413,-1.0406948757071877,0.7350356919689522
-0.22678387672760855,-1.4764697735926573,0.9105496315882395
0.022090193528492313,-0.9689024204458214,0.7852120512587331
-0.0023776200885542013,-0.5320682304304256,0.2850520699867118
0.7224675458131653,-0.5954061695044242,0.19254933628249055
1.2405250939320929,-0.3210291182568155,-0.9772283048063418
1.191506609701546,0.583654218619081,-1.635298049661452
0.973555876639573,0.9321981765458944,-1.4189610705263447
0.15942319605662636,0.42530507785598615,-1.061973534601365
-0.7610168558231085,-0.5516237248550523,-0.7398853057750755
-0.9811421045681957,-1.050708067538506,-0.3625759303704131
2.2909146499515125,0.18533510949740342,-0.4089638154830933
1.777270182616649,0.1124014807737325,-0.38855649769109174
0.9746103284676586,0.32958901748319663,-0.5596583067594294
0.18156586364517865,0.6316882860605573,-0.3829313851101433
-0.5417806187912764,0.8336745856660939,-0.08811265096779508
-0.4921492296787526,0.7745650667412572,0.1403159910225835
-0.23645181856762787,0.6192800512141563,0.2690062927137556
0.23299567321298845,0.3745158684428563,0.27546543608510093
0.3324529130417902,0.3375063287354967,0.24905514338621154
0.2897420485521288,0.4946982264919034,0.38230565379372117
0.1312348393953841,0.6579257338837452,0.47027262551568677
-0.19835751437255772,0.6860482223085184,0.7044626350532752
-0.6503573491970226,0.5195591456236812,1.026012595537866
-0.6829634727615571,0.5017640326911683,1.0488767873025213
-0.6289867345570197,0.5062829433340964,0.9040140481961497
-0.10437102481589416,0.22956627934765836,0.5990188668744827
-0.5485782462681331,-0.5366184656057313,0.7495234296943961
-1.6400421278007735,-1.0083090444371932,0.4752444762530004
-1.9842620135428641,-0.679504225685542,1.402616362354052
-1.511060214607939,0.06912513072014649,2.036357502904296
-1.8808752416505994,-0.2765521861572152,0.9539928561550235
-1.6114091801116415,-1.8714191080012148,-0.7153739590651521
0.12672666448183825,-1.977157317029846,-0.05718010887682178
0.43118328043411347,-0.8690245389505814,0.8820777416738493
0.2613169874113446,-0.7668495587387696,-0.14022204050493406
-0.2684662051670751,-0.48523873541421697,-1.6819503445365678
-0.11323934553745854,0.6628861051402264,-1.985935931420763
0.35346964128367536,1.0487028003805352,-1.214301902884644
0.4352335789431448,0.01528259398936077,-0.5028904858127465
0.5286288728274376,-1.2501212318475063,-0.3305262236869711
0.24678132380982737,-0.9403281126658569,-0.5443207474940363
-0.8009773887905066,0.10091252233692234,-0.6356209640069176
-1.1562022180209477,0.49849352017598,-0.5361868916872147
-1.3679667112832556,0.3566037294618239,-0.5775064263211522
-0.898358652080558,0.4231810879584069,-0.6871935547037853
-0.3931099661795313,0.6511668747162596,-0.5060131004605065
0.16206113442529976,0.8976765279250245,-0.42098518775443594
0.3766273899057438,0.967003014085384,-0.3149375597341495
0.34853490817116556,0.6866593809770758,-0.17915324534821153
0.13124320136374754,0.2391532075836343,-0.03381575435923243
0.120277748429096,0.09457969902140473,0.1742808379035322
-0.08621084575984062,0.09033484511427023,0.3692437795274198
-0.15197200669704705,0.22111688264745583,0.5722882382137843
-0.11881674594724435,0.3270716848390546,0.7934087935520772
-0.36654996818672586,0.4585016424137642,0.9629930250429977
-0.7737200494675218,0.5502322564031799,1.152830965528134
-0.9130683852495199,0.43741929394851486,1.4135518504826328
-0.7642415356850406,0.3013588880123029,1.3367194601515326
0.6899918980308971,0.23602231855508943,-0.06300130011022517
1.3250693873212471,-0.1806191349346809,0.3011047918933857
1.3498581227946826,-0.5443603417432655,1.3242604704937433
0.935536494907274,-0.1303431056865984,1.3515127512065424
0.5983503758510197,-0.10588104664516018,1.2497445322029748
0.9468778514318413,-1.0406948757071877,0.7350356919689522
-0.22678387672760855,-1.4764697735926573,0.9105496315882395
0.022090193528492313,-0.9689024204458214,0.7852120512587331
-0.0023776200885542013,-0.5320682304304256,0.2850520699867118
0.7224675458131653,-0.5954061695044242,0.19254933628249055
1.2405250939320929,-0.3210291182568155,-0.9772283048063418
1.191506609701546,0.583654218619081,-1.635298049661452
0.973555876639573,0.9321981765458944,-1.4189610705263447
0.15942319605662636,0.42530507785598615,-1.061973534601365
-0.7610168558231085,-0.5516237248550523,-0.7398853057750755
-0.9811421045681957,-1.050708067538506,-0.3625759303704131
0.07233871956620501,-0.36632330012622355,-0.692764969956757
1.2112851264544422,0.4357535438578359,-0.733850613625847
1.789817430386151,0.535549737535753,-0.4474445647196102
1.5277776936469416,0.16625981152536704,-0.45462894426452816
0.8759754940100383,0.17301682068836535,-0.528528789116407
0.24769857978072185,0.5336308083944181,-0.5063569745709903
-0.2497567539671945,0.7260789502614523,-0.19685452592590408
-0.2481693043228656,0.5243890754191878,0.07786236574514525
0.06986014475550523,0.3647887147254498,0.09546359881243409
0.3298651145493395,0.2764008315044598,0.11525755794102653
0.3659684158452768,0.22336741697061593,0.16011580200562447
0.22338038030999505,0.4220470221741011,0.23189574460758133
-0.013242055866828079,0.4906744738333188,0.458798763778368
-0.21637668148944247,0.5308086211199587,0.8016059637393821
-0.29523409817259993,0.4059554249957083,0.8486324070511823
-0.13412561246212537,0.29087661310963764,0.9552216894310953
-0.21123684614781393,0.26276064657528975,1.0880321992258633
-0.5351803283826467,0.14355579641440655,1.1570278042834568
-1.3166118729650158,-0.17966789264629837,1.1196604110673627
-2.0642281119089927,-0.4026705953923711,0.8170755155376155
-2.059512942355265,-0.2568453618632854,0.9775342084612376
-1.283558760446253,-0.4116306138142,1.8422435883905774
-1.616596649625142,-1.4441533454331728,-0.19599117329787774
-0.2595154721405167,-2.740528255322464,-1.3155248766406777
1.026559586469589,-1.4139480040684453,0.6759030622103837
0.4074174267238476,-0.31802367935554937,0.1663981185629359
-0.6097142091548551,0.1563603186768733,-2.2310602930822983
-0.5493946375934269,0.8365429675344545,-2.3335275495202024
0.11894605551364049,0.6969463716845558,-0.9640264364805164
0.0740562877517561,-0.3062823151325294,-0.4364717955556727
0.15789259124105093,-1.4306760067048228,-0.009635276704396407
-0.037077931071096144,-0.952762832281739,-0.34725858732474085
-0.7444787859570974,0.38850848099646884,-0.6508008945152153
-1.013881000658407,0.748687571486593,-0.26738408100291006
-1.2455831996902917,0.2896973861361978,-0.4587696978092035
-0.8137495598402306,0.2752315954216844,-1.0104662597794634
-0.2889517328765166,0.59891497669764,-0.552071290015852
0.17733297621013225,0.920687097186171,-0.44217965607028586
0.18695632176127167,0.8512180230516534,-0.20967301643465655
0.02729400055015764,0.417831873891907,-0.0034086846611494845
-0.2363453853637768,0.09494455696646746,0.16725560125068384
-0.12696930940321105,0.19310765527866652,0.10135991261615697
-0.3796737195738025,0.40859441841696553,0.26821307652705956
-0.4912571328329553,0.5395035813742632,0.4717372370699198
-0.6171570663774426,0.6055287773957286,0.6887476875579411
-0.5884480285279321,0.5068906802450844,0.8832461945714998
-0.6596410585245528,0.1443784454728029,1.0996968032509837
-0.5431839116612145,0.08116884308772566,1.45573385026346
-0.14167771377835217,0.1657776447972384,1.1882002144557062
1.1338881299095933,0.2898647208321361,-0.11752376039507935
1.2810957058415404,-0.13675084555178882,0.8128158241397726
1.4660390912388148,-0.2789539958350418,1.5113486954565742
1.5438665691696907,-0.20898534104910332,1.5232150100374169
1.3864358051308667,-1.0269779363740301,0.2750143102073609
0.7045288234827772,-1.8257778022112618,0.38188494520961813
0.7486466102149522,-1.4759422636242887,0.18481796853907398
0.09901274130007147,-0.9338614204313611,-0.2025142632201212
-0.3542816713108253,-0.6137852179140529,-0.2982144918336222
0.17866520190053586,0.15489225783363367,-1.7200447165743884
0.24279601958626162,1.01511814252153,-1.7620774937407118
-0.08838567932688003,0.8375507871436395,-1.2084433657454943
-0.38246880737508543,-0.4962376991778022,-0.6485467494363015
-0.5190899009806452,-1.541586608267061,-0.212985870579984
0.34876937738587,-0.8422402542476467,-0.6993423403360829
